{
  "resourceType": "Bundle",
  "type": "transaction",
  "entry": [
    {
      "resource": {
        "resourceType": "Patient",
        "id": "Patient-6535",
        "active": true,
        "name": [
          {
            "family": "Howe",
            "given": [
              "Barbara",
              "April"
            ]
          }
        ],
        "telecom": [
          {
            "system": "phone",
            "value": "313-555-2144",
            "use": "home"
          },
          {
            "system": "phone",
            "value": "313-555-6448",
            "use": "mobile"
          }
        ],
        "gender": "female",
        "birthDate": "1955-10-19",
        "address": [
          {
            "use": "home",
            "type": "postal",
            "line": [
              "531 SW Jefferson Avenue"
            ],
            "city": "Detroit",
            "district": "Wayne County",
            "state": "MI",
            "postalCode": "48211"
          }
        ]
      },
      "request": {
        "method": "PUT",
        "url": "Patient/Patient-6535"
      }
    },
    {
      "resource": {
        "resourceType": "PlanDefinition",
        "id": "bcs-decision-support",
        "type": {
          "coding": [
            {
              "system": "http://hl7.org/fhir/plan-definition-type",
              "code": "eca-rule",
              "display": "ECA Rule"
            }
          ]
        },
        "status": "draft",
        "library": {
          "reference": "Library/bcs-decision-support-logic"
        },
        "action": [
          {
            "triggerDefinition": [
              {
                "type": "named-event",
                "eventName": "patient-view"
              }
            ],
            "condition": [
              {
                "kind": "applicability",
                "language": "text/cql",
                "expression": "Does Patient Qualify?"
              }
            ],
            "action": [
              {
                "label": "Mammogram request",
                "condition": [
                  {
                    "kind": "applicability",
                    "language": "text/cql",
                    "expression": "Needs Mammogram"
                  }
                ],
                "type": {
                  "system": "http://hl7.org/fhir/action-type",
                  "code": "create"
                },
                "definition": {
                  "reference": "ActivityDefinition/mammogram-service-request"
                },
                "dynamicValue": [
                  {
                    "path": "action.title",
                    "expression": "MammogramSummary"
                  },
                  {
                    "path": "action.description",
                    "expression": "MammogramDetail"
                  },
                  {
                    "path": "activity.extension",
                    "expression": "MammogramIndicator"
                  }
                ]
              }
            ]
          }
        ]
      },
      "request": {
        "method": "PUT",
        "url": "PlanDefinition/bcs-decision-support"
      }
    },
    {
      "resource": {
        "resourceType": "ActivityDefinition",
        "id": "mammogram-service-request",
        "text": {
          "status": "generated",
          "div": "<div xmlns=\"http://www.w3.org/1999/xhtml\">Create ServiceRequest for Mammogrm Procedure</div>"
        },
        "status": "draft",
        "description": "Create ServiceRequest for Mammogram Procedure",
        "kind": "ProcedureRequest",
        "code": {
          "coding": [
            {
              "system": "http://www.ama-assn.org/go/cpt",
              "code": "77056",
              "display": "Mammography; bilateral"
            }
          ]
        },
        "timingTiming": {
          "_event": [
            {
              "extension": [
                {
                  "url": "http://hl7.org/fhir/StructureDefinition/cqif-basic-cqlExpression",
                  "valueString": "Now()"
                }
              ]
            }
          ]
        },
        "participant": [
          {
            "type": "practitioner"
          }
        ]
      },
      "request": {
        "method": "PUT",
        "url": "ActivityDefinition/mammogram-service-request"
      }
    },
    {
      "resource": {
        "resourceType": "Library",
        "id": "bcs-decision-support-logic",
        "version": "1.0.0",
        "status": "active",
        "experimental": true,
        "type": {
          "coding": [
            {
              "code": "logic-library"
            }
          ]
        },
        "dataRequirement": [
          {
            "type": "Procedure",
            "codeFilter": [
              {
                "path": "code",
                "valueSetString": "Bilateral Mastectomy Value Set"
              }
            ]
          },
          {
            "type": "Condition",
            "codeFilter": [
              {
                "path": "code",
                "valueSetString": "History of Bilateral Mastectomy Value Set"
              }
            ]
          },
          {
            "type": "Claim"
          },
          {
            "type": "Procedure",
            "codeFilter": [
              {
                "path": "code",
                "valueSetString": "Unilateral Mastectomy Value Set"
              }
            ]
          },
          {
            "type": "Procedure",
            "codeFilter": [
              {
                "path": "code",
                "valueSetString": "Bilateral Modifier Value Set"
              }
            ]
          },
          {
            "type": "Procedure",
            "codeFilter": [
              {
                "path": "code",
                "valueSetString": "Unilateral Mastectomy Value Set"
              }
            ]
          },
          {
            "type": "Procedure",
            "codeFilter": [
              {
                "path": "code",
                "valueSetString": "Unilateral Mastectomy Value Set"
              }
            ]
          },
          {
            "type": "Claim"
          },
          {
            "type": "Procedure",
            "codeFilter": [
              {
                "path": "code",
                "valueSetString": "Unilateral Mastectomy Value Set"
              }
            ]
          },
          {
            "type": "Procedure",
            "codeFilter": [
              {
                "path": "code",
                "valueSetString": "Left Modifier Value Set"
              }
            ]
          },
          {
            "type": "Procedure",
            "codeFilter": [
              {
                "path": "code",
                "valueSetString": "Unilateral Mastectomy Left Value Set"
              }
            ]
          },
          {
            "type": "Observation",
            "codeFilter": [
              {
                "path": "code",
                "valueSetString": "Absence of Left Breast Value Set"
              }
            ]
          },
          {
            "type": "Claim"
          },
          {
            "type": "Procedure",
            "codeFilter": [
              {
                "path": "code",
                "valueSetString": "Unilateral Mastectomy Value Set"
              }
            ]
          },
          {
            "type": "Procedure",
            "codeFilter": [
              {
                "path": "code",
                "valueSetString": "Right Modifier Value Set"
              }
            ]
          },
          {
            "type": "Procedure",
            "codeFilter": [
              {
                "path": "code",
                "valueSetString": "Unilateral Mastectomy Right Value Set"
              }
            ]
          },
          {
            "type": "Observation",
            "codeFilter": [
              {
                "path": "code",
                "valueSetString": "Absence of Right Breast Value Set"
              }
            ]
          },
          {
            "type": "Procedure",
            "codeFilter": [
              {
                "path": "code",
                "valueSetString": "Mammography Value Set"
              }
            ]
          }
        ],
        "content": [
          {
            "contentType": "application/elm+xml",
            "data": ""
          }
        ]
      },
      "request": {
        "method": "PUT",
        "url": "Library/bcs-decision-support-logic"
      }
    }
  ]
}

