{
  "resourceType": "Bundle",
  "type": "transaction",
  "entry": [
    {
      "resource": {
        "resourceType": "Practitioner",
        "id": "Practitioner-2520",
        "identifier": [
          {
            "use": "official",
            "type": {
              "coding": [
                {
                  "system": "http://hl7.org/fhir/identifier-type",
                  "code": "SB",
                  "display": "Social Beneficiary Identifier"
                }
              ],
              "text": "US Social Security Number"
            },
            "system": "http://hl7.org/fhir/sid/us-ssn",
            "value": "000002520"
          },
          {
            "use": "official",
            "type": {
              "coding": [
                {
                  "system": "http://hl7.org/fhir/v2/0203",
                  "code": "PRN",
                  "display": "Provider number"
                }
              ],
              "text": "US National Provider Identifier"
            },
            "system": "http://hl7.org/fhir/sid/us-npi",
            "value": "999992520"
          }
        ],
        "name": [
          {
            "family": "Ashley",
            "given": [
              "Kimberly",
              "Christy"
            ],
            "suffix": [
              "MD"
            ]
          }
        ],
        "telecom": [
          {
            "system": "phone",
            "value": "248-555-4614",
            "use": "work"
          },
          {
            "system": "phone",
            "value": "248-555-5392",
            "use": "mobile"
          }
        ],
        "address": [
          {
            "use": "work",
            "type": "postal",
            "line": [
              "32 E Mississippi Street"
            ],
            "city": "Detroit",
            "district": "Wayne County",
            "state": "MI",
            "postalCode": "48224"
          }
        ],
        "gender": "female",
        "birthDate": "1966-12-27"
      },
      "request": {
        "method": "PUT",
        "url": "Practitioner/Practitioner-2520"
      }
    },
    {
      "resource": {
        "resourceType": "Patient",
        "id": "Patient-6483",
        "active": true,
        "name": [
          {
            "family": "Richard",
            "given": [
              "Terrance",
              "Clyde"
            ]
          }
        ],
        "telecom": [
          {
            "system": "phone",
            "value": "616-555-3325",
            "use": "home"
          },
          {
            "system": "phone",
            "value": "616-555-0390",
            "use": "mobile"
          }
        ],
        "gender": "male",
        "birthDate": "1953-04-27",
        "address": [
          {
            "use": "home",
            "type": "postal",
            "line": [
              "724 E View Avenue"
            ],
            "city": "Freeport",
            "district": "Barry County",
            "state": "MI",
            "postalCode": "49325"
          }
        ],
        "generalPractitioner": [
          {
            "reference": "Practitioner/Practitioner-2520"
          }
        ]
      },
      "request": {
        "method": "PUT",
        "url": "Patient/Patient-6483"
      }
    },
    {
      "resource": {
        "resourceType": "Patient",
        "id": "Patient-6523",
        "active": true,
        "name": [
          {
            "family": "Vaughn",
            "given": [
              "Wendy",
              "Danielle"
            ]
          }
        ],
        "telecom": [
          {
            "system": "phone",
            "value": "248-555-0492",
            "use": "home"
          },
          {
            "system": "phone",
            "value": "248-555-2012",
            "use": "mobile"
          }
        ],
        "gender": "female",
        "birthDate": "1936-04-15",
        "address": [
          {
            "use": "home",
            "type": "postal",
            "line": [
              "588 N Fifth Street",
              "#24"
            ],
            "city": "Novi",
            "district": "Oakland County",
            "state": "MI",
            "postalCode": "48374"
          }
        ],
        "generalPractitioner": [
          {
            "reference": "Practitioner/Practitioner-2520"
          }
        ]
      },
      "request": {
        "method": "PUT",
        "url": "Patient/Patient-6523"
      }
    },
    {
      "resource": {
        "resourceType": "Library",
        "id": "library-ccs-logic",
        "version": "1.0.1",
        "status": "active",
        "experimental": true,
        "type": {
          "coding": [
            {
              "code": "logic-library"
            }
          ]
        },
        "dataRequirement": [
          {
            "type": "Procedure",
            "codeFilter": [
              {
                "path": "code",
                "valueSetString": "Cervical Cytology Value Set"
              }
            ]
          },
          {
            "type": "DiagnosticReport",
            "codeFilter": [
              {
                "path": "code",
                "valueSetString": "Cervical Cytology Value Set"
              }
            ]
          },
          {
            "type": "Observation",
            "codeFilter": [
              {
                "path": "code",
                "valueSetString": "Cervical Cytology Value Set"
              }
            ]
          },
          {
            "type": "Procedure",
            "codeFilter": [
              {
                "path": "code",
                "valueSetString": "HPV Tests Value Set"
              }
            ]
          },
          {
            "type": "DiagnosticReport",
            "codeFilter": [
              {
                "path": "code",
                "valueSetString": "HPV Tests Value Set"
              }
            ]
          },
          {
            "type": "Observation",
            "codeFilter": [
              {
                "path": "code",
                "valueSetString": "HPV Tests Value Set"
              }
            ]
          },
          {
            "type": "Procedure",
            "codeFilter": [
              {
                "path": "code",
                "valueSetString": "Absence of Cervix Value Set"
              }
            ]
          }
        ],
        "content": [
          {
            "contentType": "application/elm+xml",
            "data": ""
          }
        ]
      },
      "request": {
        "method": "PUT",
        "url": "Library/library-ccs-logic"
      }
    },
    {
      "resource": {
        "resourceType": "Measure",
        "id": "measure-ccs",
        "text": {
          "status": "generated"
        },
        "identifier": [
          {
            "use": "official",
            "system": "http://hl7.org/fhir/cqi/ecqm/Measure/Identifier/payer-extract",
            "value": "CCS"
          }
        ],
        "version": "1.0.0",
        "title": "Cervical Cancer Screening. Cohort Definition",
        "status": "active",
        "experimental": true,
        "date": "2015-03-08",
        "description": "Cervical Cancer Screening. Cohort Definition",
        "topic": [
          {
            "coding": {
              "system": "http://hl7.org/fhir/c80-doc-typecodes",
              "code": "57024-2"
            }
          }
        ],
        "library": [
          {
            "reference": "Library/library-ccs-logic"
          }
        ],
        "scoring": {
          "coding": [
            {
              "code": "proportion"
            }
          ]
        },
        "group": [
          {
            "population": [
              {
                "identifier": {
                  "value": "initial-population"
                },
                "code": {
                  "coding": [
                    {
                      "code": "initial-population"
                    }
                  ]
                },
                "criteria": "Initial Population"
              },
              {
                "identifier": {
                  "value": "numerator"
                },
                "code": {
                  "coding": [
                    {
                      "code": "numerator"
                    }
                  ]
                },
                "criteria": "Numerator"
              },
              {
                "identifier": {
                  "value": "denominator"
                },
                "code": {
                  "coding": [
                    {
                      "code": "denominator"
                    }
                  ]
                },
                "criteria": "Denominator"
              }
            ]
          }
        ]
      },
      "request": {
        "method": "PUT",
        "url": "Measure/measure-ccs"
      }
    }
  ]
}
