{
  "resourceType": "Bundle",
  "type": "transaction",
  "entry": [
    {
      "resource": {
        "resourceType": "Organization",
        "id": "Organization-1002",
        "identifier": [
          {
            "use": "official",
            "system": "http://www.hl7.org/oid/",
            "value": "1.2.3.4.1002"
          },
          {
            "use": "official",
            "type": {
              "coding": [
                {
                  "system": "http://hl7.org/fhir/v2/0203",
                  "code": "TAX",
                  "display": "Tax ID number"
                }
              ],
              "text": "US Employer Identification Number"
            },
            "system": "http://hl7.org/fhir/sid/us-tax",
            "value": "000001002"
          }
        ],
        "active": true,
        "type": [
          {
            "text": "General Acute Care Hospital"
          }
        ],
        "name": "Gift of Mercy Hospital",
        "telecom": [
          {
            "system": "phone",
            "value": "657-555-9543",
            "use": "work"
          }
        ],
        "address": [
          {
            "line": [
              "565 S Rhine Street"
            ],
            "city": "Warren",
            "district": "Macomb County",
            "state": "MI",
            "postalCode": "48093"
          }
        ]
      },
      "request": {
        "method": "PUT",
        "url": "Organization/Organization-1002"
      }
    },
    {
      "resource": {
        "resourceType": "Location",
        "id": "Location-1002",
        "identifier": [
          {
            "use": "official",
            "system": "http://www.hl7.org/oid/",
            "value": "1.2.3.4.1002"
          }
        ],
        "status": "active",
        "name": "Gift of Mercy Hospital",
        "mode": "instance",
        "telecom": [
          {
            "system": "phone",
            "value": "(269) 555-2117",
            "use": "work"
          }
        ],
        "address": {
          "use": "work",
          "type": "physical",
          "line": [
            "565 S Rhine Street"
          ],
          "city": "Warren",
          "district": "Macomb County",
          "state": "MI",
          "postalCode": "48093"
        },
        "physicalType": {
          "coding": [
            {
              "system": "http://hl7.org/fhir/location-physical-type",
              "code": "bu",
              "display": "Building"
            }
          ]
        },
        "position": {
          "longitude": -86.04832751844613,
          "latitude": 42.21198036944899
        },
        "managingOrganization": {
          "reference": "Organization/Organization-1002",
          "display": "Gift of Mercy Hospital"
        }
      },
      "request": {
        "method": "PUT",
        "url": "Location/Location-1002"
      }
    },
    {
      "resource": {
        "resourceType": "Organization",
        "id": "Organization-1001",
        "identifier": [
          {
            "use": "official",
            "system": "http://www.hl7.org/oid/",
            "value": "1.2.3.4.1001"
          },
          {
            "use": "official",
            "type": {
              "coding": [
                {
                  "system": "http://hl7.org/fhir/v2/0203",
                  "code": "TAX",
                  "display": "Tax ID number"
                }
              ],
              "text": "US Employer Identification Number"
            },
            "system": "http://hl7.org/fhir/sid/us-tax",
            "value": "000001001"
          }
        ],
        "active": true,
        "type": [
          {
            "text": "General Acute Care Hospital"
          }
        ],
        "name": "Windward General Hospital",
        "telecom": [
          {
            "system": "phone",
            "value": "781-555-1962",
            "use": "work"
          }
        ],
        "address": [
          {
            "line": [
              "749 Hudson Avenue"
            ],
            "city": "Ann Arbor",
            "district": "Washtenaw County",
            "state": "MI",
            "postalCode": "48103"
          }
        ]
      },
      "request": {
        "method": "PUT",
        "url": "Organization/Organization-1001"
      }
    },
    {
      "resource": {
        "resourceType": "Location",
        "id": "Location-1001",
        "identifier": [
          {
            "use": "official",
            "system": "http://www.hl7.org/oid/",
            "value": "1.2.3.4.1001"
          }
        ],
        "status": "active",
        "name": "Windward General Hospital",
        "mode": "instance",
        "telecom": [
          {
            "system": "phone",
            "value": "(586) 555-8588",
            "use": "work"
          }
        ],
        "address": {
          "use": "work",
          "type": "physical",
          "line": [
            "749 Hudson Avenue"
          ],
          "city": "Ann Arbor",
          "district": "Washtenaw County",
          "state": "MI",
          "postalCode": "48103"
        },
        "physicalType": {
          "coding": [
            {
              "system": "http://hl7.org/fhir/location-physical-type",
              "code": "bu",
              "display": "Building"
            }
          ]
        },
        "position": {
          "longitude": -82.99668786918522,
          "latitude": 42.62799327336516
        },
        "managingOrganization": {
          "reference": "Organization/Organization-1001",
          "display": "Windward General Hospital"
        }
      },
      "request": {
        "method": "PUT",
        "url": "Location/Location-1001"
      }
    },
    {
      "resource": {
        "resourceType": "Organization",
        "id": "Organization-1103",
        "identifier": [
          {
            "use": "official",
            "system": "http://www.hl7.org/oid/",
            "value": "1.2.3.4.1103"
          },
          {
            "use": "official",
            "type": {
              "coding": [
                {
                  "system": "http://hl7.org/fhir/v2/0203",
                  "code": "TAX",
                  "display": "Tax ID number"
                }
              ],
              "text": "US Employer Identification Number"
            },
            "system": "http://hl7.org/fhir/sid/us-tax",
            "value": "000001103"
          }
        ],
        "active": true,
        "type": [
          {
            "text": "General Practice"
          }
        ],
        "name": "Acme Medical Center",
        "telecom": [
          {
            "system": "phone",
            "value": "586-555-6055",
            "use": "work"
          }
        ],
        "address": [
          {
            "line": [
              "167 N Oak Drive"
            ],
            "city": "Warren",
            "district": "Macomb County",
            "state": "MI",
            "postalCode": "48093"
          }
        ]
      },
      "request": {
        "method": "PUT",
        "url": "Organization/Organization-1103"
      }
    },
    {
      "resource": {
        "resourceType": "Location",
        "id": "Location-1103",
        "identifier": [
          {
            "use": "official",
            "system": "http://www.hl7.org/oid/",
            "value": "1.2.3.4.1103"
          }
        ],
        "status": "active",
        "name": "Acme Medical Center",
        "mode": "instance",
        "telecom": [
          {
            "system": "phone",
            "value": "(586) 555-8152",
            "use": "work"
          }
        ],
        "address": {
          "use": "work",
          "type": "physical",
          "line": [
            "167 N Oak Drive"
          ],
          "city": "Warren",
          "district": "Macomb County",
          "state": "MI",
          "postalCode": "48093"
        },
        "physicalType": {
          "coding": [
            {
              "system": "http://hl7.org/fhir/location-physical-type",
              "code": "bu",
              "display": "Building"
            }
          ]
        },
        "position": {
          "longitude": -82.78691558412172,
          "latitude": 42.584066645760025
        },
        "managingOrganization": {
          "reference": "Organization/Organization-1103",
          "display": "Acme Medical Center"
        }
      },
      "request": {
        "method": "PUT",
        "url": "Location/Location-1103"
      }
    },
    {
      "resource": {
        "resourceType": "Organization",
        "id": "Organization-1104",
        "identifier": [
          {
            "use": "official",
            "system": "http://www.hl7.org/oid/",
            "value": "1.2.3.4.1104"
          },
          {
            "use": "official",
            "type": {
              "coding": [
                {
                  "system": "http://hl7.org/fhir/v2/0203",
                  "code": "TAX",
                  "display": "Tax ID number"
                }
              ],
              "text": "US Employer Identification Number"
            },
            "system": "http://hl7.org/fhir/sid/us-tax",
            "value": "000001104"
          }
        ],
        "active": true,
        "type": [
          {
            "text": "General Practice"
          }
        ],
        "name": "Bay Area Family Practice",
        "telecom": [
          {
            "system": "phone",
            "value": "734-555-5671",
            "use": "work"
          }
        ],
        "address": [
          {
            "line": [
              "761 NE Ninth Circle"
            ],
            "city": "Ann Arbor",
            "district": "Washtenaw County",
            "state": "MI",
            "postalCode": "48103"
          }
        ]
      },
      "request": {
        "method": "PUT",
        "url": "Organization/Organization-1104"
      }
    },
    {
      "resource": {
        "resourceType": "Location",
        "id": "Location-1104",
        "identifier": [
          {
            "use": "official",
            "system": "http://www.hl7.org/oid/",
            "value": "1.2.3.4.1104"
          }
        ],
        "status": "active",
        "name": "Bay Area Family Practice",
        "mode": "instance",
        "telecom": [
          {
            "system": "phone",
            "value": "(734) 555-2740",
            "use": "work"
          }
        ],
        "address": {
          "use": "work",
          "type": "physical",
          "line": [
            "761 NE Ninth Circle"
          ],
          "city": "Ann Arbor",
          "district": "Washtenaw County",
          "state": "MI",
          "postalCode": "48103"
        },
        "physicalType": {
          "coding": [
            {
              "system": "http://hl7.org/fhir/location-physical-type",
              "code": "bu",
              "display": "Building"
            }
          ]
        },
        "position": {
          "longitude": -83.24852592902265,
          "latitude": 42.22498322238487
        },
        "managingOrganization": {
          "reference": "Organization/Organization-1104",
          "display": "Bay Area Family Practice"
        }
      },
      "request": {
        "method": "PUT",
        "url": "Location/Location-1104"
      }
    },
    {
      "resource": {
        "resourceType": "Organization",
        "id": "Organization-1105",
        "identifier": [
          {
            "use": "official",
            "system": "http://www.hl7.org/oid/",
            "value": "1.2.3.4.1105"
          },
          {
            "use": "official",
            "type": {
              "coding": [
                {
                  "system": "http://hl7.org/fhir/v2/0203",
                  "code": "TAX",
                  "display": "Tax ID number"
                }
              ],
              "text": "US Employer Identification Number"
            },
            "system": "http://hl7.org/fhir/sid/us-tax",
            "value": "000001105"
          }
        ],
        "active": true,
        "type": [
          {
            "text": "General Practice"
          }
        ],
        "name": "Bayside Medical Group",
        "telecom": [
          {
            "system": "phone",
            "value": "810-555-1514",
            "use": "work"
          }
        ],
        "address": [
          {
            "line": [
              "616 Peach Street"
            ],
            "city": "Flint",
            "district": "Genesee County",
            "state": "MI",
            "postalCode": "48503"
          }
        ]
      },
      "request": {
        "method": "PUT",
        "url": "Organization/Organization-1105"
      }
    },
    {
      "resource": {
        "resourceType": "Location",
        "id": "Location-1105",
        "identifier": [
          {
            "use": "official",
            "system": "http://www.hl7.org/oid/",
            "value": "1.2.3.4.1105"
          }
        ],
        "status": "active",
        "name": "Bayside Medical Group",
        "mode": "instance",
        "telecom": [
          {
            "system": "phone",
            "value": "(616) 555-2806",
            "use": "work"
          }
        ],
        "address": {
          "use": "work",
          "type": "physical",
          "line": [
            "616 Peach Street"
          ],
          "city": "Flint",
          "district": "Genesee County",
          "state": "MI",
          "postalCode": "48503"
        },
        "physicalType": {
          "coding": [
            {
              "system": "http://hl7.org/fhir/location-physical-type",
              "code": "bu",
              "display": "Building"
            }
          ]
        },
        "position": {
          "longitude": -85.63506928883693,
          "latitude": 42.98123440264812
        },
        "managingOrganization": {
          "reference": "Organization/Organization-1105",
          "display": "Bayside Medical Group"
        }
      },
      "request": {
        "method": "PUT",
        "url": "Location/Location-1105"
      }
    },
    {
      "resource": {
        "resourceType": "Organization",
        "id": "Organization-1106",
        "identifier": [
          {
            "use": "official",
            "system": "http://www.hl7.org/oid/",
            "value": "1.2.3.4.1106"
          },
          {
            "use": "official",
            "type": {
              "coding": [
                {
                  "system": "http://hl7.org/fhir/v2/0203",
                  "code": "TAX",
                  "display": "Tax ID number"
                }
              ],
              "text": "US Employer Identification Number"
            },
            "system": "http://hl7.org/fhir/sid/us-tax",
            "value": "000001106"
          }
        ],
        "active": true,
        "type": [
          {
            "text": "General Practice"
          }
        ],
        "name": "Cranston Family Medical",
        "telecom": [
          {
            "system": "phone",
            "value": "313-555-3517",
            "use": "work"
          }
        ],
        "address": [
          {
            "line": [
              "910 SE Columbia Avenue"
            ],
            "city": "Dearborn",
            "district": "Wayne County",
            "state": "MI",
            "postalCode": "48126"
          }
        ]
      },
      "request": {
        "method": "PUT",
        "url": "Organization/Organization-1106"
      }
    },
    {
      "resource": {
        "resourceType": "Location",
        "id": "Location-1106",
        "identifier": [
          {
            "use": "official",
            "system": "http://www.hl7.org/oid/",
            "value": "1.2.3.4.1106"
          }
        ],
        "status": "active",
        "name": "Cranston Family Medical",
        "mode": "instance",
        "telecom": [
          {
            "system": "phone",
            "value": "(616) 555-1930",
            "use": "work"
          }
        ],
        "address": {
          "use": "work",
          "type": "physical",
          "line": [
            "910 SE Columbia Avenue"
          ],
          "city": "Dearborn",
          "district": "Wayne County",
          "state": "MI",
          "postalCode": "48126"
        },
        "physicalType": {
          "coding": [
            {
              "system": "http://hl7.org/fhir/location-physical-type",
              "code": "bu",
              "display": "Building"
            }
          ]
        },
        "position": {
          "longitude": -85.6343800035714,
          "latitude": 42.97765947569625
        },
        "managingOrganization": {
          "reference": "Organization/Organization-1106",
          "display": "Cranston Family Medical"
        }
      },
      "request": {
        "method": "PUT",
        "url": "Location/Location-1106"
      }
    },
    {
      "resource": {
        "resourceType": "Organization",
        "id": "Organization-1101",
        "identifier": [
          {
            "use": "official",
            "system": "http://www.hl7.org/oid/",
            "value": "1.2.3.4.1101"
          },
          {
            "use": "official",
            "type": {
              "coding": [
                {
                  "system": "http://hl7.org/fhir/v2/0203",
                  "code": "TAX",
                  "display": "Tax ID number"
                }
              ],
              "text": "US Employer Identification Number"
            },
            "system": "http://hl7.org/fhir/sid/us-tax",
            "value": "000001101"
          }
        ],
        "active": true,
        "type": [
          {
            "text": "General Practice"
          }
        ],
        "name": "McKinley Health Center",
        "telecom": [
          {
            "system": "phone",
            "value": "248-555-6712",
            "use": "work"
          }
        ],
        "address": [
          {
            "line": [
              "428 E Eighth Drive"
            ],
            "city": "Southfield",
            "district": "Oakland County",
            "state": "MI",
            "postalCode": "48037"
          }
        ]
      },
      "request": {
        "method": "PUT",
        "url": "Organization/Organization-1101"
      }
    },
    {
      "resource": {
        "resourceType": "Location",
        "id": "Location-1101",
        "identifier": [
          {
            "use": "official",
            "system": "http://www.hl7.org/oid/",
            "value": "1.2.3.4.1101"
          }
        ],
        "status": "active",
        "name": "McKinley Health Center",
        "mode": "instance",
        "telecom": [
          {
            "system": "phone",
            "value": "(734) 555-3131",
            "use": "work"
          }
        ],
        "address": {
          "use": "work",
          "type": "physical",
          "line": [
            "428 E Eighth Drive"
          ],
          "city": "Southfield",
          "district": "Oakland County",
          "state": "MI",
          "postalCode": "48037"
        },
        "physicalType": {
          "coding": [
            {
              "system": "http://hl7.org/fhir/location-physical-type",
              "code": "bu",
              "display": "Building"
            }
          ]
        },
        "position": {
          "longitude": -83.72731866148872,
          "latitude": 42.2814465218414
        },
        "managingOrganization": {
          "reference": "Organization/Organization-1101",
          "display": "McKinley Health Center"
        }
      },
      "request": {
        "method": "PUT",
        "url": "Location/Location-1101"
      }
    },
    {
      "resource": {
        "resourceType": "Organization",
        "id": "Organization-1102",
        "identifier": [
          {
            "use": "official",
            "system": "http://www.hl7.org/oid/",
            "value": "1.2.3.4.1102"
          },
          {
            "use": "official",
            "type": {
              "coding": [
                {
                  "system": "http://hl7.org/fhir/v2/0203",
                  "code": "TAX",
                  "display": "Tax ID number"
                }
              ],
              "text": "US Employer Identification Number"
            },
            "system": "http://hl7.org/fhir/sid/us-tax",
            "value": "000001102"
          }
        ],
        "active": true,
        "type": [
          {
            "text": "General Practice"
          }
        ],
        "name": "Pediatric and Adult Medicine",
        "telecom": [
          {
            "system": "phone",
            "value": "586-555-0939",
            "use": "work"
          }
        ],
        "address": [
          {
            "line": [
              "663 Deleware Circle"
            ],
            "city": "Warren",
            "district": "Macomb County",
            "state": "MI",
            "postalCode": "48093"
          }
        ]
      },
      "request": {
        "method": "PUT",
        "url": "Organization/Organization-1102"
      }
    },
    {
      "resource": {
        "resourceType": "Location",
        "id": "Location-1102",
        "identifier": [
          {
            "use": "official",
            "system": "http://www.hl7.org/oid/",
            "value": "1.2.3.4.1102"
          }
        ],
        "status": "active",
        "name": "Pediatric and Adult Medicine",
        "mode": "instance",
        "telecom": [
          {
            "system": "phone",
            "value": "(810) 555-1217",
            "use": "work"
          }
        ],
        "address": {
          "use": "work",
          "type": "physical",
          "line": [
            "663 Deleware Circle"
          ],
          "city": "Warren",
          "district": "Macomb County",
          "state": "MI",
          "postalCode": "48093"
        },
        "physicalType": {
          "coding": [
            {
              "system": "http://hl7.org/fhir/location-physical-type",
              "code": "bu",
              "display": "Building"
            }
          ]
        },
        "position": {
          "longitude": -82.48692837350966,
          "latitude": 42.71162414519594
        },
        "managingOrganization": {
          "reference": "Organization/Organization-1102",
          "display": "Pediatric and Adult Medicine"
        }
      },
      "request": {
        "method": "PUT",
        "url": "Location/Location-1102"
      }
    },
    {
      "resource": {
        "resourceType": "Practitioner",
        "id": "Practitioner-2516",
        "identifier": [
          {
            "use": "official",
            "type": {
              "coding": [
                {
                  "system": "http://hl7.org/fhir/identifier-type",
                  "code": "SB",
                  "display": "Social Beneficiary Identifier"
                }
              ],
              "text": "US Social Security Number"
            },
            "system": "http://hl7.org/fhir/sid/us-ssn",
            "value": "000002516"
          },
          {
            "use": "official",
            "type": {
              "coding": [
                {
                  "system": "http://hl7.org/fhir/v2/0203",
                  "code": "PRN",
                  "display": "Provider number"
                }
              ],
              "text": "US National Provider Identifier"
            },
            "system": "http://hl7.org/fhir/sid/us-npi",
            "value": "999992516"
          }
        ],
        "name": [
          {
            "family": "Larson",
            "given": [
              "Agnes",
              "Tammy"
            ],
            "suffix": [
              "MD"
            ]
          }
        ],
        "telecom": [
          {
            "system": "phone",
            "value": "734-555-8298",
            "use": "work"
          },
          {
            "system": "phone",
            "value": "734-555-2068",
            "use": "mobile"
          }
        ],
        "address": [
          {
            "use": "work",
            "type": "postal",
            "line": [
              "578 Cherry Court"
            ],
            "city": "Flint",
            "district": "Genesee County",
            "state": "MI",
            "postalCode": "48503"
          }
        ],
        "gender": "female",
        "birthDate": "1964-11-11"
      },
      "request": {
        "method": "PUT",
        "url": "Practitioner/Practitioner-2516"
      }
    },
    {
      "resource": {
        "resourceType": "Practitioner",
        "id": "Practitioner-2517",
        "identifier": [
          {
            "use": "official",
            "type": {
              "coding": [
                {
                  "system": "http://hl7.org/fhir/identifier-type",
                  "code": "SB",
                  "display": "Social Beneficiary Identifier"
                }
              ],
              "text": "US Social Security Number"
            },
            "system": "http://hl7.org/fhir/sid/us-ssn",
            "value": "000002517"
          },
          {
            "use": "official",
            "type": {
              "coding": [
                {
                  "system": "http://hl7.org/fhir/v2/0203",
                  "code": "PRN",
                  "display": "Provider number"
                }
              ],
              "text": "US National Provider Identifier"
            },
            "system": "http://hl7.org/fhir/sid/us-npi",
            "value": "999992517"
          }
        ],
        "name": [
          {
            "family": "Warner",
            "given": [
              "Cathy",
              "Shannon"
            ],
            "suffix": [
              "MD"
            ]
          }
        ],
        "telecom": [
          {
            "system": "phone",
            "value": "616-555-9543",
            "use": "work"
          },
          {
            "system": "phone",
            "value": "616-555-3505",
            "use": "mobile"
          }
        ],
        "address": [
          {
            "use": "work",
            "type": "postal",
            "line": [
              "362 NW Cherry Street",
              "#82"
            ],
            "city": "Fort Gratiot",
            "district": "St Clair County",
            "state": "MI",
            "postalCode": "48059"
          }
        ],
        "gender": "female",
        "birthDate": "1973-09-18"
      },
      "request": {
        "method": "PUT",
        "url": "Practitioner/Practitioner-2517"
      }
    },
    {
      "resource": {
        "resourceType": "Practitioner",
        "id": "Practitioner-2532",
        "identifier": [
          {
            "use": "official",
            "type": {
              "coding": [
                {
                  "system": "http://hl7.org/fhir/identifier-type",
                  "code": "SB",
                  "display": "Social Beneficiary Identifier"
                }
              ],
              "text": "US Social Security Number"
            },
            "system": "http://hl7.org/fhir/sid/us-ssn",
            "value": "000002532"
          },
          {
            "use": "official",
            "type": {
              "coding": [
                {
                  "system": "http://hl7.org/fhir/v2/0203",
                  "code": "PRN",
                  "display": "Provider number"
                }
              ],
              "text": "US National Provider Identifier"
            },
            "system": "http://hl7.org/fhir/sid/us-npi",
            "value": "999992532"
          }
        ],
        "name": [
          {
            "family": "Potter",
            "given": [
              "Chad",
              "Espinoza"
            ],
            "suffix": [
              "MD"
            ]
          }
        ],
        "telecom": [
          {
            "system": "phone",
            "value": "248-555-6227",
            "use": "work"
          },
          {
            "system": "phone",
            "value": "248-555-0749",
            "use": "mobile"
          }
        ],
        "address": [
          {
            "use": "work",
            "type": "postal",
            "line": [
              "422 E Fifth Court"
            ],
            "city": "Kincheloe",
            "district": "Chippewa County",
            "state": "MI",
            "postalCode": "49788"
          }
        ],
        "gender": "male",
        "birthDate": "1973-02-08"
      },
      "request": {
        "method": "PUT",
        "url": "Practitioner/Practitioner-2532"
      }
    },
    {
      "resource": {
        "resourceType": "Practitioner",
        "id": "Practitioner-2535",
        "identifier": [
          {
            "use": "official",
            "type": {
              "coding": [
                {
                  "system": "http://hl7.org/fhir/identifier-type",
                  "code": "SB",
                  "display": "Social Beneficiary Identifier"
                }
              ],
              "text": "US Social Security Number"
            },
            "system": "http://hl7.org/fhir/sid/us-ssn",
            "value": "000002535"
          },
          {
            "use": "official",
            "type": {
              "coding": [
                {
                  "system": "http://hl7.org/fhir/v2/0203",
                  "code": "PRN",
                  "display": "Provider number"
                }
              ],
              "text": "US National Provider Identifier"
            },
            "system": "http://hl7.org/fhir/sid/us-npi",
            "value": "999992535"
          }
        ],
        "name": [
          {
            "family": "Carey",
            "given": [
              "Clifton",
              "Terrence"
            ],
            "suffix": [
              "MD"
            ]
          }
        ],
        "telecom": [
          {
            "system": "phone",
            "value": "810-555-5993",
            "use": "work"
          },
          {
            "system": "phone",
            "value": "810-555-6902",
            "use": "mobile"
          }
        ],
        "address": [
          {
            "use": "work",
            "type": "postal",
            "line": [
              "937 Pecan Avenue"
            ],
            "city": "Sterling Heights",
            "district": "Macomb County",
            "state": "MI",
            "postalCode": "48310"
          }
        ],
        "gender": "male",
        "birthDate": "1952-09-15"
      },
      "request": {
        "method": "PUT",
        "url": "Practitioner/Practitioner-2535"
      }
    },
    {
      "resource": {
        "resourceType": "Practitioner",
        "id": "Practitioner-2523",
        "identifier": [
          {
            "use": "official",
            "type": {
              "coding": [
                {
                  "system": "http://hl7.org/fhir/identifier-type",
                  "code": "SB",
                  "display": "Social Beneficiary Identifier"
                }
              ],
              "text": "US Social Security Number"
            },
            "system": "http://hl7.org/fhir/sid/us-ssn",
            "value": "000002523"
          },
          {
            "use": "official",
            "type": {
              "coding": [
                {
                  "system": "http://hl7.org/fhir/v2/0203",
                  "code": "PRN",
                  "display": "Provider number"
                }
              ],
              "text": "US National Provider Identifier"
            },
            "system": "http://hl7.org/fhir/sid/us-npi",
            "value": "999992523"
          }
        ],
        "name": [
          {
            "family": "Davis",
            "given": [
              "Dean",
              "Andrew"
            ],
            "suffix": [
              "MD"
            ]
          }
        ],
        "telecom": [
          {
            "system": "phone",
            "value": "906-555-1042",
            "use": "work"
          },
          {
            "system": "phone",
            "value": "906-555-1374",
            "use": "mobile"
          }
        ],
        "address": [
          {
            "use": "work",
            "type": "postal",
            "line": [
              "288 E Jefferson Road"
            ],
            "city": "Grand Rapids",
            "district": "Kent County",
            "state": "MI",
            "postalCode": "49548"
          }
        ],
        "gender": "male",
        "birthDate": "1991-02-02"
      },
      "request": {
        "method": "PUT",
        "url": "Practitioner/Practitioner-2523"
      }
    },
    {
      "resource": {
        "resourceType": "Practitioner",
        "id": "Practitioner-2521",
        "identifier": [
          {
            "use": "official",
            "type": {
              "coding": [
                {
                  "system": "http://hl7.org/fhir/identifier-type",
                  "code": "SB",
                  "display": "Social Beneficiary Identifier"
                }
              ],
              "text": "US Social Security Number"
            },
            "system": "http://hl7.org/fhir/sid/us-ssn",
            "value": "000002521"
          },
          {
            "use": "official",
            "type": {
              "coding": [
                {
                  "system": "http://hl7.org/fhir/v2/0203",
                  "code": "PRN",
                  "display": "Provider number"
                }
              ],
              "text": "US National Provider Identifier"
            },
            "system": "http://hl7.org/fhir/sid/us-npi",
            "value": "999992521"
          }
        ],
        "name": [
          {
            "family": "Guerra",
            "given": [
              "Heather",
              "Fuentes"
            ],
            "suffix": [
              "MD"
            ]
          }
        ],
        "telecom": [
          {
            "system": "phone",
            "value": "231-555-8261",
            "use": "work"
          },
          {
            "system": "phone",
            "value": "231-555-6965",
            "use": "mobile"
          }
        ],
        "address": [
          {
            "use": "work",
            "type": "postal",
            "line": [
              "906 SW Elm Street"
            ],
            "city": "Elmira",
            "district": "Antrim County",
            "state": "MI",
            "postalCode": "49730"
          }
        ],
        "gender": "female",
        "birthDate": "1975-12-08"
      },
      "request": {
        "method": "PUT",
        "url": "Practitioner/Practitioner-2521"
      }
    },
    {
      "resource": {
        "resourceType": "Practitioner",
        "id": "Practitioner-2526",
        "identifier": [
          {
            "use": "official",
            "type": {
              "coding": [
                {
                  "system": "http://hl7.org/fhir/identifier-type",
                  "code": "SB",
                  "display": "Social Beneficiary Identifier"
                }
              ],
              "text": "US Social Security Number"
            },
            "system": "http://hl7.org/fhir/sid/us-ssn",
            "value": "000002526"
          },
          {
            "use": "official",
            "type": {
              "coding": [
                {
                  "system": "http://hl7.org/fhir/v2/0203",
                  "code": "PRN",
                  "display": "Provider number"
                }
              ],
              "text": "US National Provider Identifier"
            },
            "system": "http://hl7.org/fhir/sid/us-npi",
            "value": "999992526"
          }
        ],
        "name": [
          {
            "family": "Wilkins",
            "given": [
              "James",
              "Woodward"
            ],
            "suffix": [
              "MD"
            ]
          }
        ],
        "telecom": [
          {
            "system": "phone",
            "value": "734-555-6322",
            "use": "work"
          },
          {
            "system": "phone",
            "value": "734-555-7293",
            "use": "mobile"
          }
        ],
        "address": [
          {
            "use": "work",
            "type": "postal",
            "line": [
              "322 W Atlantic Drive"
            ],
            "city": "Zeeland",
            "district": "Ottawa County",
            "state": "MI",
            "postalCode": "49464"
          }
        ],
        "gender": "male",
        "birthDate": "1988-11-18"
      },
      "request": {
        "method": "PUT",
        "url": "Practitioner/Practitioner-2526"
      }
    },
    {
      "resource": {
        "resourceType": "Practitioner",
        "id": "Practitioner-2518",
        "identifier": [
          {
            "use": "official",
            "type": {
              "coding": [
                {
                  "system": "http://hl7.org/fhir/identifier-type",
                  "code": "SB",
                  "display": "Social Beneficiary Identifier"
                }
              ],
              "text": "US Social Security Number"
            },
            "system": "http://hl7.org/fhir/sid/us-ssn",
            "value": "000002518"
          },
          {
            "use": "official",
            "type": {
              "coding": [
                {
                  "system": "http://hl7.org/fhir/v2/0203",
                  "code": "PRN",
                  "display": "Provider number"
                }
              ],
              "text": "US National Provider Identifier"
            },
            "system": "http://hl7.org/fhir/sid/us-npi",
            "value": "999992518"
          }
        ],
        "name": [
          {
            "family": "Saunders",
            "given": [
              "Jane",
              "Rosemary"
            ],
            "suffix": [
              "MD"
            ]
          }
        ],
        "telecom": [
          {
            "system": "phone",
            "value": "989-555-3727",
            "use": "work"
          },
          {
            "system": "phone",
            "value": "989-555-8588",
            "use": "mobile"
          }
        ],
        "address": [
          {
            "use": "work",
            "type": "postal",
            "line": [
              "17 E Orange Avenue"
            ],
            "city": "Southfield",
            "district": "Oakland County",
            "state": "MI",
            "postalCode": "48034"
          }
        ],
        "gender": "female",
        "birthDate": "1975-01-27"
      },
      "request": {
        "method": "PUT",
        "url": "Practitioner/Practitioner-2518"
      }
    },
    {
      "resource": {
        "resourceType": "Practitioner",
        "id": "Practitioner-2520",
        "identifier": [
          {
            "use": "official",
            "type": {
              "coding": [
                {
                  "system": "http://hl7.org/fhir/identifier-type",
                  "code": "SB",
                  "display": "Social Beneficiary Identifier"
                }
              ],
              "text": "US Social Security Number"
            },
            "system": "http://hl7.org/fhir/sid/us-ssn",
            "value": "000002520"
          },
          {
            "use": "official",
            "type": {
              "coding": [
                {
                  "system": "http://hl7.org/fhir/v2/0203",
                  "code": "PRN",
                  "display": "Provider number"
                }
              ],
              "text": "US National Provider Identifier"
            },
            "system": "http://hl7.org/fhir/sid/us-npi",
            "value": "999992520"
          }
        ],
        "name": [
          {
            "family": "Ashley",
            "given": [
              "Kimberly",
              "Christy"
            ],
            "suffix": [
              "MD"
            ]
          }
        ],
        "telecom": [
          {
            "system": "phone",
            "value": "248-555-4614",
            "use": "work"
          },
          {
            "system": "phone",
            "value": "248-555-5392",
            "use": "mobile"
          }
        ],
        "address": [
          {
            "use": "work",
            "type": "postal",
            "line": [
              "32 E Mississippi Street"
            ],
            "city": "Detroit",
            "district": "Wayne County",
            "state": "MI",
            "postalCode": "48224"
          }
        ],
        "gender": "female",
        "birthDate": "1966-12-27"
      },
      "request": {
        "method": "PUT",
        "url": "Practitioner/Practitioner-2520"
      }
    },
    {
      "resource": {
        "resourceType": "Practitioner",
        "id": "Practitioner-2525",
        "identifier": [
          {
            "use": "official",
            "type": {
              "coding": [
                {
                  "system": "http://hl7.org/fhir/identifier-type",
                  "code": "SB",
                  "display": "Social Beneficiary Identifier"
                }
              ],
              "text": "US Social Security Number"
            },
            "system": "http://hl7.org/fhir/sid/us-ssn",
            "value": "000002525"
          },
          {
            "use": "official",
            "type": {
              "coding": [
                {
                  "system": "http://hl7.org/fhir/v2/0203",
                  "code": "PRN",
                  "display": "Provider number"
                }
              ],
              "text": "US National Provider Identifier"
            },
            "system": "http://hl7.org/fhir/sid/us-npi",
            "value": "999992525"
          }
        ],
        "name": [
          {
            "family": "Ballard",
            "given": [
              "Kyle",
              "Christian"
            ],
            "suffix": [
              "MD"
            ]
          }
        ],
        "telecom": [
          {
            "system": "phone",
            "value": "616-555-9326",
            "use": "work"
          },
          {
            "system": "phone",
            "value": "616-555-8412",
            "use": "mobile"
          }
        ],
        "address": [
          {
            "use": "work",
            "type": "postal",
            "line": [
              "832 W Rhine Street"
            ],
            "city": "South Lyon",
            "district": "Oakland County",
            "state": "MI",
            "postalCode": "48178"
          }
        ],
        "gender": "male",
        "birthDate": "1987-10-30"
      },
      "request": {
        "method": "PUT",
        "url": "Practitioner/Practitioner-2525"
      }
    },
    {
      "resource": {
        "resourceType": "Practitioner",
        "id": "Practitioner-2527",
        "identifier": [
          {
            "use": "official",
            "type": {
              "coding": [
                {
                  "system": "http://hl7.org/fhir/identifier-type",
                  "code": "SB",
                  "display": "Social Beneficiary Identifier"
                }
              ],
              "text": "US Social Security Number"
            },
            "system": "http://hl7.org/fhir/sid/us-ssn",
            "value": "000002527"
          },
          {
            "use": "official",
            "type": {
              "coding": [
                {
                  "system": "http://hl7.org/fhir/v2/0203",
                  "code": "PRN",
                  "display": "Provider number"
                }
              ],
              "text": "US National Provider Identifier"
            },
            "system": "http://hl7.org/fhir/sid/us-npi",
            "value": "999992527"
          }
        ],
        "name": [
          {
            "family": "Mejia",
            "given": [
              "Lee",
              "Chris"
            ],
            "suffix": [
              "MD"
            ]
          }
        ],
        "telecom": [
          {
            "system": "phone",
            "value": "586-555-4387",
            "use": "work"
          },
          {
            "system": "phone",
            "value": "586-555-5712",
            "use": "mobile"
          }
        ],
        "address": [
          {
            "use": "work",
            "type": "postal",
            "line": [
              "170 W Potomac Place"
            ],
            "city": "West Bloomfield",
            "district": "Oakland County",
            "state": "MI",
            "postalCode": "48323"
          }
        ],
        "gender": "male",
        "birthDate": "1969-07-21"
      },
      "request": {
        "method": "PUT",
        "url": "Practitioner/Practitioner-2527"
      }
    },
    {
      "resource": {
        "resourceType": "Practitioner",
        "id": "Practitioner-2533",
        "identifier": [
          {
            "use": "official",
            "type": {
              "coding": [
                {
                  "system": "http://hl7.org/fhir/identifier-type",
                  "code": "SB",
                  "display": "Social Beneficiary Identifier"
                }
              ],
              "text": "US Social Security Number"
            },
            "system": "http://hl7.org/fhir/sid/us-ssn",
            "value": "000002533"
          },
          {
            "use": "official",
            "type": {
              "coding": [
                {
                  "system": "http://hl7.org/fhir/v2/0203",
                  "code": "PRN",
                  "display": "Provider number"
                }
              ],
              "text": "US National Provider Identifier"
            },
            "system": "http://hl7.org/fhir/sid/us-npi",
            "value": "999992533"
          }
        ],
        "name": [
          {
            "family": "Ballard",
            "given": [
              "Lena",
              "Dickerson"
            ],
            "suffix": [
              "MD"
            ]
          }
        ],
        "telecom": [
          {
            "system": "phone",
            "value": "810-555-5228",
            "use": "work"
          },
          {
            "system": "phone",
            "value": "810-555-0118",
            "use": "mobile"
          }
        ],
        "address": [
          {
            "use": "work",
            "type": "postal",
            "line": [
              "474 Fourth Drive",
              "#56"
            ],
            "city": "Taylor",
            "district": "Wayne County",
            "state": "MI",
            "postalCode": "48180"
          }
        ],
        "gender": "female",
        "birthDate": "1985-06-13"
      },
      "request": {
        "method": "PUT",
        "url": "Practitioner/Practitioner-2533"
      }
    },
    {
      "resource": {
        "resourceType": "Practitioner",
        "id": "Practitioner-2522",
        "identifier": [
          {
            "use": "official",
            "type": {
              "coding": [
                {
                  "system": "http://hl7.org/fhir/identifier-type",
                  "code": "SB",
                  "display": "Social Beneficiary Identifier"
                }
              ],
              "text": "US Social Security Number"
            },
            "system": "http://hl7.org/fhir/sid/us-ssn",
            "value": "000002522"
          },
          {
            "use": "official",
            "type": {
              "coding": [
                {
                  "system": "http://hl7.org/fhir/v2/0203",
                  "code": "PRN",
                  "display": "Provider number"
                }
              ],
              "text": "US National Provider Identifier"
            },
            "system": "http://hl7.org/fhir/sid/us-npi",
            "value": "999992522"
          }
        ],
        "name": [
          {
            "family": "Kent",
            "given": [
              "Lois",
              "Jean"
            ],
            "suffix": [
              "MD"
            ]
          }
        ],
        "telecom": [
          {
            "system": "phone",
            "value": "734-555-6074",
            "use": "work"
          },
          {
            "system": "phone",
            "value": "734-555-7382",
            "use": "mobile"
          }
        ],
        "address": [
          {
            "use": "work",
            "type": "postal",
            "line": [
              "343 SE Fourth Place"
            ],
            "city": "Lincoln Park",
            "district": "Wayne County",
            "state": "MI",
            "postalCode": "48146"
          }
        ],
        "gender": "female",
        "birthDate": "1948-06-06"
      },
      "request": {
        "method": "PUT",
        "url": "Practitioner/Practitioner-2522"
      }
    },
    {
      "resource": {
        "resourceType": "Practitioner",
        "id": "Practitioner-2534",
        "identifier": [
          {
            "use": "official",
            "type": {
              "coding": [
                {
                  "system": "http://hl7.org/fhir/identifier-type",
                  "code": "SB",
                  "display": "Social Beneficiary Identifier"
                }
              ],
              "text": "US Social Security Number"
            },
            "system": "http://hl7.org/fhir/sid/us-ssn",
            "value": "000002534"
          },
          {
            "use": "official",
            "type": {
              "coding": [
                {
                  "system": "http://hl7.org/fhir/v2/0203",
                  "code": "PRN",
                  "display": "Provider number"
                }
              ],
              "text": "US National Provider Identifier"
            },
            "system": "http://hl7.org/fhir/sid/us-npi",
            "value": "999992534"
          }
        ],
        "name": [
          {
            "family": "Dawson",
            "given": [
              "Pearl",
              "Rita"
            ],
            "suffix": [
              "MD"
            ]
          }
        ],
        "telecom": [
          {
            "system": "phone",
            "value": "989-555-5547",
            "use": "work"
          },
          {
            "system": "phone",
            "value": "989-555-0435",
            "use": "mobile"
          }
        ],
        "address": [
          {
            "use": "work",
            "type": "postal",
            "line": [
              "60 French Court"
            ],
            "city": "Benton Harbor",
            "district": "Berrien County",
            "state": "MI",
            "postalCode": "49022"
          }
        ],
        "gender": "female",
        "birthDate": "1986-12-30"
      },
      "request": {
        "method": "PUT",
        "url": "Practitioner/Practitioner-2534"
      }
    },
    {
      "resource": {
        "resourceType": "Practitioner",
        "id": "Practitioner-2529",
        "identifier": [
          {
            "use": "official",
            "type": {
              "coding": [
                {
                  "system": "http://hl7.org/fhir/identifier-type",
                  "code": "SB",
                  "display": "Social Beneficiary Identifier"
                }
              ],
              "text": "US Social Security Number"
            },
            "system": "http://hl7.org/fhir/sid/us-ssn",
            "value": "000002529"
          },
          {
            "use": "official",
            "type": {
              "coding": [
                {
                  "system": "http://hl7.org/fhir/v2/0203",
                  "code": "PRN",
                  "display": "Provider number"
                }
              ],
              "text": "US National Provider Identifier"
            },
            "system": "http://hl7.org/fhir/sid/us-npi",
            "value": "999992529"
          }
        ],
        "name": [
          {
            "family": "Nielsen",
            "given": [
              "Stanley",
              "Floyd"
            ],
            "suffix": [
              "MD"
            ]
          }
        ],
        "telecom": [
          {
            "system": "phone",
            "value": "810-555-7479",
            "use": "work"
          },
          {
            "system": "phone",
            "value": "810-555-8541",
            "use": "mobile"
          }
        ],
        "address": [
          {
            "use": "work",
            "type": "postal",
            "line": [
              "37 N Orange Street"
            ],
            "city": "Gladstone",
            "district": "Delta County",
            "state": "MI",
            "postalCode": "49837"
          }
        ],
        "gender": "male",
        "birthDate": "1971-06-05"
      },
      "request": {
        "method": "PUT",
        "url": "Practitioner/Practitioner-2529"
      }
    },
    {
      "resource": {
        "resourceType": "Practitioner",
        "id": "Practitioner-2519",
        "identifier": [
          {
            "use": "official",
            "type": {
              "coding": [
                {
                  "system": "http://hl7.org/fhir/identifier-type",
                  "code": "SB",
                  "display": "Social Beneficiary Identifier"
                }
              ],
              "text": "US Social Security Number"
            },
            "system": "http://hl7.org/fhir/sid/us-ssn",
            "value": "000002519"
          },
          {
            "use": "official",
            "type": {
              "coding": [
                {
                  "system": "http://hl7.org/fhir/v2/0203",
                  "code": "PRN",
                  "display": "Provider number"
                }
              ],
              "text": "US National Provider Identifier"
            },
            "system": "http://hl7.org/fhir/sid/us-npi",
            "value": "999992519"
          }
        ],
        "name": [
          {
            "family": "Garrett",
            "given": [
              "Stanley",
              "Jason"
            ],
            "suffix": [
              "MD"
            ]
          }
        ],
        "telecom": [
          {
            "system": "phone",
            "value": "616-555-2401",
            "use": "work"
          },
          {
            "system": "phone",
            "value": "616-555-7849",
            "use": "mobile"
          }
        ],
        "address": [
          {
            "use": "work",
            "type": "postal",
            "line": [
              "352 NW Cedar Drive",
              "#29"
            ],
            "city": "Northport",
            "district": "Leelanau County",
            "state": "MI",
            "postalCode": "49670"
          }
        ],
        "gender": "male",
        "birthDate": "1965-09-14"
      },
      "request": {
        "method": "PUT",
        "url": "Practitioner/Practitioner-2519"
      }
    },
    {
      "resource": {
        "resourceType": "Practitioner",
        "id": "Practitioner-2528",
        "identifier": [
          {
            "use": "official",
            "type": {
              "coding": [
                {
                  "system": "http://hl7.org/fhir/identifier-type",
                  "code": "SB",
                  "display": "Social Beneficiary Identifier"
                }
              ],
              "text": "US Social Security Number"
            },
            "system": "http://hl7.org/fhir/sid/us-ssn",
            "value": "000002528"
          },
          {
            "use": "official",
            "type": {
              "coding": [
                {
                  "system": "http://hl7.org/fhir/v2/0203",
                  "code": "PRN",
                  "display": "Provider number"
                }
              ],
              "text": "US National Provider Identifier"
            },
            "system": "http://hl7.org/fhir/sid/us-npi",
            "value": "999992528"
          }
        ],
        "name": [
          {
            "family": "Wheeler",
            "given": [
              "Tanya",
              "Sally"
            ],
            "suffix": [
              "MD"
            ]
          }
        ],
        "telecom": [
          {
            "system": "phone",
            "value": "989-555-9103",
            "use": "work"
          },
          {
            "system": "phone",
            "value": "989-555-3650",
            "use": "mobile"
          }
        ],
        "address": [
          {
            "use": "work",
            "type": "postal",
            "line": [
              "405 French Street",
              "#77"
            ],
            "city": "Flat Rock",
            "district": "Wayne County",
            "state": "MI",
            "postalCode": "48134"
          }
        ],
        "gender": "female",
        "birthDate": "1982-03-19"
      },
      "request": {
        "method": "PUT",
        "url": "Practitioner/Practitioner-2528"
      }
    },
    {
      "resource": {
        "resourceType": "Practitioner",
        "id": "Practitioner-2530",
        "identifier": [
          {
            "use": "official",
            "type": {
              "coding": [
                {
                  "system": "http://hl7.org/fhir/identifier-type",
                  "code": "SB",
                  "display": "Social Beneficiary Identifier"
                }
              ],
              "text": "US Social Security Number"
            },
            "system": "http://hl7.org/fhir/sid/us-ssn",
            "value": "000002530"
          },
          {
            "use": "official",
            "type": {
              "coding": [
                {
                  "system": "http://hl7.org/fhir/v2/0203",
                  "code": "PRN",
                  "display": "Provider number"
                }
              ],
              "text": "US National Provider Identifier"
            },
            "system": "http://hl7.org/fhir/sid/us-npi",
            "value": "999992530"
          }
        ],
        "name": [
          {
            "family": "McCormick",
            "given": [
              "Terrence",
              "Ramirez"
            ],
            "suffix": [
              "MD"
            ]
          }
        ],
        "telecom": [
          {
            "system": "phone",
            "value": "989-555-8093",
            "use": "work"
          },
          {
            "system": "phone",
            "value": "989-555-6332",
            "use": "mobile"
          }
        ],
        "address": [
          {
            "use": "work",
            "type": "postal",
            "line": [
              "879 S First Circle"
            ],
            "city": "Commerce Township",
            "district": "Oakland County",
            "state": "MI",
            "postalCode": "48382"
          }
        ],
        "gender": "male",
        "birthDate": "1976-11-15"
      },
      "request": {
        "method": "PUT",
        "url": "Practitioner/Practitioner-2530"
      }
    },
    {
      "resource": {
        "resourceType": "Practitioner",
        "id": "Practitioner-2531",
        "identifier": [
          {
            "use": "official",
            "type": {
              "coding": [
                {
                  "system": "http://hl7.org/fhir/identifier-type",
                  "code": "SB",
                  "display": "Social Beneficiary Identifier"
                }
              ],
              "text": "US Social Security Number"
            },
            "system": "http://hl7.org/fhir/sid/us-ssn",
            "value": "000002531"
          },
          {
            "use": "official",
            "type": {
              "coding": [
                {
                  "system": "http://hl7.org/fhir/v2/0203",
                  "code": "PRN",
                  "display": "Provider number"
                }
              ],
              "text": "US National Provider Identifier"
            },
            "system": "http://hl7.org/fhir/sid/us-npi",
            "value": "999992531"
          }
        ],
        "name": [
          {
            "family": "Boone",
            "given": [
              "Tracy",
              "Hampton"
            ],
            "suffix": [
              "MD"
            ]
          }
        ],
        "telecom": [
          {
            "system": "phone",
            "value": "313-555-6841",
            "use": "work"
          },
          {
            "system": "phone",
            "value": "313-555-1078",
            "use": "mobile"
          }
        ],
        "address": [
          {
            "use": "work",
            "type": "postal",
            "line": [
              "597 Deleware Road"
            ],
            "city": "Highland",
            "district": "Oakland County",
            "state": "MI",
            "postalCode": "48357"
          }
        ],
        "gender": "male",
        "birthDate": "1991-11-24"
      },
      "request": {
        "method": "PUT",
        "url": "Practitioner/Practitioner-2531"
      }
    },
    {
      "resource": {
        "resourceType": "Practitioner",
        "id": "Practitioner-2524",
        "identifier": [
          {
            "use": "official",
            "type": {
              "coding": [
                {
                  "system": "http://hl7.org/fhir/identifier-type",
                  "code": "SB",
                  "display": "Social Beneficiary Identifier"
                }
              ],
              "text": "US Social Security Number"
            },
            "system": "http://hl7.org/fhir/sid/us-ssn",
            "value": "000002524"
          },
          {
            "use": "official",
            "type": {
              "coding": [
                {
                  "system": "http://hl7.org/fhir/v2/0203",
                  "code": "PRN",
                  "display": "Provider number"
                }
              ],
              "text": "US National Provider Identifier"
            },
            "system": "http://hl7.org/fhir/sid/us-npi",
            "value": "999992524"
          }
        ],
        "name": [
          {
            "family": "Riddle",
            "given": [
              "Willie",
              "Vincent"
            ],
            "suffix": [
              "MD"
            ]
          }
        ],
        "telecom": [
          {
            "system": "phone",
            "value": "269-555-4816",
            "use": "work"
          },
          {
            "system": "phone",
            "value": "269-555-2495",
            "use": "mobile"
          }
        ],
        "address": [
          {
            "use": "work",
            "type": "postal",
            "line": [
              "795 SE View Circle"
            ],
            "city": "Gladstone",
            "district": "Delta County",
            "state": "MI",
            "postalCode": "49837"
          }
        ],
        "gender": "male",
        "birthDate": "1962-05-22"
      },
      "request": {
        "method": "PUT",
        "url": "Practitioner/Practitioner-2524"
      }
    }
  ]
}
